// Start Time: Unknown
// Update Rate: 40.0Hz
// Filter Profile: human (46.1)
// Firmware Version: 4.0.2
PacketCounter	SampleTimeFine	Roll	Pitch	Yaw
00765		0.223614	0.755838	37.435573
00766		0.219556	0.748020	37.447900
00767		0.217635	0.742717	37.461005
00768		0.213551	0.733925	37.475083
00769		0.212095	0.726951	37.489117
00770		0.208612	0.719851	37.502300
00771		0.202563	0.712735	37.517272
00772		0.200652	0.706451	37.530423
00773		0.198080	0.700159	37.542703
00774		0.193596	0.694167	37.555036
00775		0.190030	0.686934	37.568413
00776		0.185931	0.680362	37.581522
00777		0.182197	0.672549	37.595687
00778		0.178641	0.667034	37.607929
00779		0.172966	0.660560	37.620849
00780		0.169615	0.655000	37.632185
00781		0.168092	0.647229	37.643945
00782		0.164291	0.643574	37.654401
00783		0.163374	0.636233	37.666506
00784		0.159318	0.629456	37.680129
00785		0.156363	0.625361	37.694464
00786		0.153479	0.617756	37.708445
00787		0.152372	0.614652	37.722725
00788		0.150122	0.607186	37.733359
00789		0.146734	0.601827	37.744871
00790		0.140911	0.598461	37.757683
00791		0.142138	0.596628	37.768059
00792		0.137315	0.593330	37.778283
00793		0.136314	0.590276	37.789612
00794		0.134384	0.586121	37.801200
00795		0.131643	0.584418	37.810939
00796		0.130686	0.582124	37.822307
00797		0.126826	0.580915	37.834073
00798		0.126749	0.580050	37.843105
00799		0.126470	0.576434	37.859175
00800		0.124195	0.572546	37.873565
00801		0.120057	0.571271	37.878265
00802		0.119323	0.569466	37.890215
00803		0.113148	0.560704	37.900074
00804		0.107663	0.553979	37.907645
00805		0.103259	0.553277	37.907791
00806		0.104414	0.556610	37.912994
00807		0.102553	0.553668	37.922113
00808		0.101574	0.556215	37.925264
00809		0.098041	0.554204	37.929589
00810		0.090884	0.550435	37.935673
00811		0.086190	0.541252	37.946441
00812		0.078830	0.535509	37.945715
00813		0.073702	0.527678	37.955611
00814		0.076597	0.527369	37.973056
00815		0.071650	0.526496	37.973439
00816		0.071995	0.525592	37.982720
00817		0.070205	0.523523	37.989394
00818		0.062229	0.517513	37.992723
00819		0.063788	0.523838	37.985988
00820		0.056643	0.517996	37.988203
00821		0.053977	0.515653	37.994063
00822		0.057918	0.523546	37.990055
00823		0.051368	0.517919	38.002491
00824		0.046300	0.511580	38.009126
00825		0.040724	0.512141	38.003197
00826		0.051828	0.527475	38.002327
00827		0.059967	0.536000	38.009620
00828		0.053493	0.531913	38.010479
00829		0.050677	0.527837	38.020722
00830		0.048658	0.532225	38.017452
00831		0.053330	0.542877	38.007981
00832		0.056881	0.557246	37.990305
00833		0.059205	0.558508	37.996788
00834		0.053484	0.551418	38.012552
00835		0.054474	0.559134	37.999347
00836		0.052893	0.561110	38.003544
00837		0.051777	0.560229	38.003113
00838		0.049419	0.559341	37.998597
00839		0.042397	0.555889	37.994449
00840		0.045621	0.570424	37.971971
00841		0.048580	0.578766	37.963077
00842		0.046198	0.584708	37.950199
00843		0.040431	0.585509	37.950455
00844		0.043573	0.597132	37.944989
00845		0.091657	0.501342	42.645342
00846		0.242944	0.240426	49.860589
00847		0.521663	-0.051911	52.085773
00848		1.956632	-0.775139	53.011011
00849		4.888246	-2.521275	55.151738
00850		8.668135	-5.737882	56.046816
00851		12.242097	-6.367768	57.868925
00852		13.682067	-4.464001	59.519485
00853		15.487871	-1.495907	60.540447
00854		19.696409	1.676067	61.947085
00855		23.729588	5.823460	63.123916
00856		28.499507	11.295091	65.149717
00857		34.693623	16.517800	67.415605
00858		38.407061	21.830826	67.457804
00859		38.284903	27.527618	65.897173
00860		37.269652	32.653043	64.388101
00861		34.981116	37.687001	62.299093
00862		31.329753	43.134544	59.074963
00863		25.797184	48.496142	53.562728
00864		15.131800	53.865831	43.697744
00865		-2.784903	58.842346	27.673813
00866		-26.476913	60.931762	6.892316
00867		-47.376592	58.327611	-10.140689
00868		-59.770315	53.259414	-18.782531
00869		-65.658968	48.530042	-21.832147
00870		-68.669019	44.821794	-24.274404
00871		-70.129199	41.487518	-25.568466
00872		-72.529478	40.453490	-26.783466
00873		-74.352970	41.582927	-27.787717
00874		-74.243704	43.403569	-27.669978
00875		-72.825673	45.515930	-26.606054
00876		-67.665844	48.149777	-24.191846
00877		-58.190118	50.717485	-18.141547
00878		-38.869372	53.791557	-4.089590
00879		-13.685081	54.995832	17.174135
00880		7.257553	51.239355	36.442523
00881		25.173868	42.580330	52.772506
00882		42.158092	29.192426	64.581199
00883		57.622266	11.708899	69.458417
00884		71.529327	-5.534478	68.098261
00885		80.090918	-15.973326	64.705264
00886		78.539943	-16.705501	67.540537
00887		73.371155	-10.659440	71.273774
00888		69.927340	-4.832735	72.354099
00889		70.915052	-0.646665	69.847958
00890		69.947825	4.179798	65.903752
00891		67.654461	9.713032	61.469323
00892		64.225825	15.802708	55.889276
00893		59.152467	21.094318	48.028132
00894		51.305150	23.908073	36.131066
00895		45.735102	20.441156	24.405806
00896		47.837138	12.701379	18.572450
00897		57.651572	4.164085	17.336512
00898		69.076888	-4.991181	17.715945
00899		74.455908	-12.092565	20.451639
00900		74.066048	-13.828906	24.323723
00901		75.527756	-10.878114	26.551026
00902		75.721530	-5.890851	28.491877
00903		76.089305	0.902866	27.715773
00904		74.681155	8.619063	25.541713
00905		68.650021	17.176595	21.034071
00906		58.438743	24.443660	13.272814
00907		49.247060	27.738345	2.704128
00908		45.034128	24.216689	-9.821192
00909		53.260939	14.639861	-15.863567
00910		65.673004	5.529043	-13.664890
00911		70.575852	-3.318228	-8.436629
00912		65.863653	-10.572415	-3.303781
00913		62.573248	-11.700144	2.148312
00914		60.239629	-8.671497	7.026412
00915		56.593014	-2.165608	9.921585
00916		52.332743	6.944522	10.490014
00917		46.838110	16.673706	7.851110
00918		38.227449	23.681391	-1.129210
00919		28.588770	23.769865	-15.130285
00920		23.508725	15.527463	-30.126515
00921		23.014179	5.832037	-35.035975
00922		21.705041	-2.522642	-32.476208
00923		24.255644	-10.253152	-26.276301
00924		27.657636	-14.587317	-15.697588
00925		25.442196	-15.529716	-5.958867
00926		19.653330	-10.396299	-0.443840
00927		15.066556	-1.409144	4.875931
00928		10.567306	7.287818	6.012480
00929		4.380934	14.968353	1.756495
00930		-0.956777	20.264697	-4.402673
00931		-5.051982	22.094045	-11.909407
00932		-10.266075	19.667123	-21.413877
00933		-15.791095	14.055957	-30.157916
00934		-20.895944	6.605721	-36.887042
00935		-23.104091	-1.720761	-42.578270
00936		-24.748797	-9.798036	-48.553526
00937		-29.073161	-16.374895	-55.131289
00938		-31.895640	-22.367276	-61.625570
00939		-31.277768	-28.416260	-67.261246
00940		-29.944729	-34.357214	-71.564530
00941		-29.246165	-39.351884	-74.194567
00942		-27.724051	-42.058282	-76.446920
00943		-25.875111	-39.717642	-78.636522
00944		-22.819586	-34.847927	-79.938899
00945		-21.126976	-29.490832	-80.386544
00946		-19.886220	-24.003230	-79.416542
00947		-18.826278	-17.780554	-77.503557
00948		-19.539244	-12.649735	-75.717292
00949		-22.115028	-8.908631	-74.326183
00950		-24.987055	-5.656670	-72.515224
00951		-25.600776	-2.568755	-69.264863
00952		-24.594072	0.185161	-64.464729
00953		-24.299717	2.481512	-59.380603
00954		-24.061859	4.151644	-54.157068
00955		-23.931440	5.557975	-49.204575
00956		-24.682072	7.488366	-44.769546
00957		-28.753022	10.014974	-40.862117
00958		-33.201287	11.972235	-37.121126
00959		-35.605476	14.168724	-32.962812
00960		-38.945372	17.101075	-28.443802
00961		-46.710083	16.941162	-23.161539
00962		-50.248035	16.738261	-14.637404
00963		-46.943995	15.972252	-1.510446
00964		-42.820072	15.422039	14.480091
00965		-36.042635	15.315357	31.697813
00966		-26.396899	15.237698	49.994038
00967		-16.352070	14.344874	67.083914
00968		-3.853102	10.918240	81.625200
00969		10.322388	5.313871	92.530598
00970		20.341294	1.220001	98.699261
00971		26.421377	0.674766	101.534165
00972		29.363828	3.317623	102.959262
00973		30.006198	7.675222	103.108667
00974		27.853274	12.902243	102.318435
00975		23.680525	18.163175	99.936577
00976		17.354806	23.817832	95.893263
00977		5.788946	30.828088	89.252164
00978		-10.261698	36.339323	79.474566
00979		-26.259443	38.468295	70.546937
00980		-39.398631	36.639897	66.087090
00981		-44.723576	31.511478	66.623974
00982		-45.952447	23.221933	70.812493
00983		-47.606767	15.679257	78.153675
00984		-49.846656	9.804309	86.974619
00985		-47.012809	4.047614	98.884761
00986		-46.221541	2.181836	110.881278
00987		-47.791561	2.285790	122.947715
00988		-45.488272	4.055758	137.117789
00989		-39.487340	7.254865	151.870324
00990		-33.439980	10.083666	165.039801
00991		-26.171790	11.558927	176.478687
00992		-17.241527	11.821318	-174.315051
00993		-8.276539	11.939879	-167.876251
00994		-0.456531	12.746308	-163.153064
00995		5.461296	14.575811	-158.928746
00996		9.872636	16.949077	-155.546551
00997		12.978400	18.931178	-152.840311
00998		15.843553	20.546737	-150.957823
00999		17.933125	21.199428	-151.801864
01000		20.773026	21.028388	-153.728794
01001		23.231864	20.126671	-157.065651
01002		23.513406	18.836341	-161.962587
01003		23.761621	17.117413	-167.743908
01004		24.676416	14.092990	-175.080543
01005		25.575388	10.978705	176.536456
01006		26.101226	10.765851	168.389390
01007		24.052121	10.450958	158.952817
01008		21.697851	9.659681	149.195904
01009		22.820309	9.155759	139.849707
01010		25.105722	9.388832	130.231636
01011		26.730624	9.900208	119.935450
01012		27.886718	12.495640	110.136344
01013		27.822642	16.649354	100.482690
01014		26.957268	20.408970	89.310123
01015		25.237226	23.498221	77.546883
01016		23.529958	25.635545	65.451963
01017		21.502245	26.453340	52.626992
01018		20.058201	25.818515	39.414568
01019		18.731887	25.127114	26.414380
01020		16.148893	22.880483	12.493670
01021		13.419907	19.301489	-1.494185
01022		11.885666	14.923163	-14.497539
01023		11.402281	9.217620	-26.974657
01024		9.951691	4.063163	-39.467941
01025		6.082019	2.030045	-51.998663
01026		-2.416990	4.164331	-62.629115
01027		-10.857256	6.308150	-70.017192
01028		-13.325354	6.637465	-74.167429
01029		-10.632823	6.344322	-76.118649
01030		-7.957419	6.485005	-77.787909
01031		-7.629842	6.669056	-80.566186
01032		-8.311550	7.149694	-83.789678
01033		-7.689262	7.722617	-86.630150
01034		-6.656464	8.495850	-88.923186
01035		-6.003549	8.972896	-91.000275
01036		-4.593512	9.259997	-92.420005
01037		-2.653745	9.497454	-92.944889
01038		-1.069559	9.990076	-93.226217
01039		0.194986	10.556530	-93.741394
01040		0.939576	11.071402	-94.237663
01041		1.876269	11.957355	-94.574966
01042		3.248241	12.880022	-95.201572
01043		4.333319	13.696935	-96.101722
01044		4.971276	14.576911	-97.030095
01045		5.501533	15.637472	-98.095983
01046		5.214219	16.396084	-99.946269
01047		4.749619	16.269334	-102.338946
01048		4.856911	15.207850	-104.206889
01049		5.549711	13.912790	-105.328323
01050		6.342789	13.496082	-106.021327
01051		5.134957	14.402874	-106.453851
01052		2.551189	15.375058	-106.420826
01053		3.056139	16.177980	-105.365167
01054		5.157993	18.322873	-103.609742
01055		7.425365	20.419748	-102.388199
01056		8.219849	22.207217	-102.203809
01057		9.849222	23.915688	-102.526305
01058		12.112487	24.122205	-104.394424
01059		13.231873	23.740548	-108.191860
01060		14.303165	23.690303	-112.979731
01061		14.668129	23.943846	-118.665256
01062		13.989894	24.211605	-124.902999
01063		13.015432	24.560260	-131.229051
01064		12.831608	24.897524	-137.422351
01065		12.465044	25.280170	-143.704042
01066		11.527607	25.612311	-150.247049
01067		10.935353	25.854685	-156.642297
01068		10.168302	25.813179	-163.099212
01069		9.489644	25.595001	-169.611700
01070		9.398519	25.127261	-176.017896
01071		9.268518	24.320461	177.822676
01072		9.138527	23.679963	172.257269
01073		8.695726	22.918207	166.820574
01074		8.329217	22.288693	161.768312
01075		8.266522	21.980290	157.176667
01076		7.876050	21.757934	152.720032
01077		6.917065	21.713125	148.654982
01078		6.554223	21.369676	145.072953
01079		6.511099	21.130902	141.925706
01080		6.510828	20.973176	139.021015
01081		6.882875	20.457929	136.298383
01082		7.304608	19.919484	133.717971
01083		7.763185	19.621469	131.299521
01084		8.125596	19.570125	128.944470
01085		8.180684	19.584438	126.678720
01086		8.517484	19.421799	124.625949
01087		9.221418	19.399756	123.018238
01088		10.471116	19.342072	121.549867
01089		11.793948	19.497371	120.253106
01090		12.180004	19.813417	118.785847
01091		11.959811	20.263416	117.367470
01092		11.953368	20.706766	116.035083
01093		12.851846	20.986462	115.057537
01094		14.047500	20.747117	114.223964
01095		15.517857	20.186149	113.493012
01096		16.693535	20.068521	112.623883
01097		17.444281	20.283482	111.427291
01098		17.860499	20.531031	110.103916
01099		18.177896	20.385883	108.544009
01100		18.387607	20.109825	106.758501
01101		18.526259	19.864601	104.667645
01102		18.900030	19.383824	102.506718
01103		19.558973	18.652112	100.314777
01104		20.036421	18.319343	98.130521
01105		19.991828	17.952140	95.123206
01106		19.719616	17.744898	91.843607
01107		19.369984	17.660822	88.674516
01108		19.323802	17.585704	85.592552
01109		18.849398	17.761378	82.380394
01110		17.523361	18.036200	79.018680
01111		16.526020	18.129235	75.870209
01112		16.262364	17.945028	72.882450
01113		15.904041	17.975956	69.933381
01114		14.137307	18.308494	66.655546
01115		11.848879	18.698466	63.252175
01116		12.357905	19.184014	60.376261
01117		13.751024	19.158687	58.157680
01118		17.990022	18.606589	57.498699
01119		21.660033	16.278422	55.526464
01120		23.326120	12.341963	51.627178
01121		23.134204	8.886341	45.862348
01122		22.172406	6.626959	38.985459
01123		20.793188	6.609182	31.140606
01124		17.999564	9.932206	23.010701
01125		13.836426	16.061930	15.648004
01126		8.990339	24.734375	9.434015
01127		4.693414	34.804702	4.282630
01128		0.203446	45.239524	0.087534
01129		-3.893162	54.796913	-2.765320
01130		-4.269040	62.687523	-2.145005
01131		2.758625	68.929996	6.079093
01132		22.369367	72.410359	26.057638
01133		44.419672	71.215919	48.390823
01134		57.364854	66.962987	62.850498
01135		62.792036	61.097079	70.485592
01136		64.334793	54.453219	74.384962
01137		63.759118	47.559296	76.290124
01138		60.985161	41.003085	75.798884
01139		58.484557	34.514002	74.708335
01140		57.154750	27.715884	73.168981
01141		54.422929	21.134901	70.139903
01142		51.186933	15.577776	65.692282
01143		46.528155	12.148420	59.825472
01144		42.181790	10.830317	53.033774
01145		37.428810	11.265569	45.414258
01146		31.582021	12.492607	36.879244
01147		24.539467	13.887111	27.740101
01148		15.589684	14.622580	18.133193
01149		4.805332	12.903722	7.983007
01150		-1.378119	7.598417	0.487232
01151		-4.387992	0.854547	-3.306859
01152		-6.675560	-6.522347	-4.927473
01153		-5.731353	-15.284853	-2.254936
01154		-4.883845	-23.091883	4.230274
01155		-7.015199	-28.219071	11.220296
01156		-9.791255	-30.822960	20.689339
01157		-13.862434	-29.228669	30.787312
01158		-19.001960	-24.168439	36.753071
01159		-24.046717	-17.259802	39.943962
01160		-28.029859	-10.415103	43.581198
01161		-28.838954	-3.885774	48.285203
01162		-27.548675	2.604461	53.362567
01163		-25.164209	8.446623	58.939891
01164		-20.722479	13.568132	65.229057
01165		-15.135114	17.701774	71.798180
01166		-9.626016	20.664284	78.214457
01167		-6.144063	22.133509	82.833351
01168		-4.929129	23.343992	85.332686
01169		-3.995808	25.320478	86.270749
01170		-2.434086	26.615174	86.543900
01171		-4.765591	27.246855	84.899537
01172		-7.417233	27.070729	82.138066
01173		-7.517247	24.914593	79.524643
01174		-7.206410	24.411819	77.669103
01175		-8.988985	24.371001	75.280543
01176		-8.587480	22.388937	73.471087
01177		-4.700086	20.437184	73.450377
01178		-1.080708	19.092156	73.821442
01179		-1.288099	17.477410	72.846191
01180		-1.503066	16.607418	71.982261
01181		-2.386574	16.344619	71.037091
01182		-4.121903	16.436969	69.045639
01183		-4.525434	15.043867	67.489772
01184		-3.627975	12.607546	67.073856
01185		-2.778469	9.266196	66.897371
01186		-2.057017	7.793765	67.185692
01187		-1.293331	4.942399	66.473823
01188		-2.085737	0.608023	65.174418
01189		-2.891008	-3.601196	64.341003
01190		-1.943167	-8.159498	64.510840
01191		-1.256334	-9.949962	65.585566
01192		-0.585092	-7.590923	66.612399
01193		0.185974	-5.048726	67.610452
01194		-0.718193	-4.540558	67.636078
01195		-1.123556	-4.038909	67.685182
01196		-2.131942	-2.926593	67.645844
01197		-3.433319	-3.680101	66.583530
01198		-2.896588	-4.791494	65.316035
01199		-2.886551	-5.547568	63.747825
01200		-4.778479	-7.853884	61.417105
01201		-4.746064	-10.368158	59.566673
01202		-4.638367	-11.546389	58.094456
01203		-3.861903	-12.426273	56.874702
01204		-1.961209	-14.244554	54.711200
01205		-0.149871	-16.174212	52.408976
01206		2.018776	-17.821677	49.732290
01207		3.166107	-17.439423	47.147564
01208		1.728764	-13.570643	47.310143
01209		0.535514	-9.904234	46.508997
01210		0.659335	-6.833802	45.935186
01211		0.616637	-6.107486	44.631932
01212		-0.003234	-5.319297	43.388290
01213		-0.233802	-2.693798	42.923491
01214		-0.205886	1.033954	41.496071
01215		-0.318013	1.209322	39.567497
01216		-0.377541	1.200849	36.893898
01217		-0.378086	1.190128	36.844217
01218		-0.374676	1.182631	36.852130
01219		-0.371346	1.172620	36.859196
01220		-0.367123	1.163595	36.866213
01221		-0.362043	1.156385	36.872293
01222		-0.360479	1.147589	36.878480
01223		-0.354411	1.141465	36.886246
01224		-0.351096	1.134569	36.891459
01225		-0.346041	1.126872	36.896621
01226		-0.341871	1.117527	36.901818
01227		-0.338458	1.109192	36.908761
01228		-0.335147	1.101797	36.913054
01229		-0.332628	1.096252	36.918207
01230		-0.330091	1.090804	36.923345
01231		-0.324893	1.082787	36.930179
01232		-0.320604	1.074857	36.936147
01233		-0.316278	1.068775	36.942078
01234		-0.312816	1.060189	36.948929
01235		-0.308528	1.053393	36.953968
01236		-0.305082	1.044948	36.959912
01237		-0.300726	1.040055	36.964896
01238		-0.298998	1.032684	36.970848
01239		-0.295537	1.024520	36.976749
01240		-0.291252	1.015542	36.981747
01241		-0.290388	1.004146	36.989490
01242		-0.286919	0.995375	36.995358
01243		-0.283423	0.985797	37.002094
01244		-0.280744	0.978942	37.008808
01245		-0.277230	0.972138	37.014607
01246		-0.275471	0.965461	37.020445
01247		-0.272006	0.958833	37.025345
01248		-0.271189	0.948881	37.031226
01249		-0.268546	0.942470	37.036998
01250		-0.265002	0.935246	37.043615
01251		-0.262300	0.929867	37.050222
01252		-0.258761	0.924540	37.055917
01253		-0.257005	0.918482	37.061663
01254		-0.251809	0.914168	37.065526
01255		-0.248432	0.906489	37.069469
01256		-0.244908	0.901545	37.075117
01257		-0.238779	0.897484	37.079789
01258		-0.235314	0.893566	37.083655
01259		-0.230020	0.890593	37.089195
01260		-0.224739	0.884252	37.096519
01261		-0.223914	0.879830	37.101322
01262		-0.219693	0.871930	37.106049
01263		-0.214520	0.865863	37.111597
01264		-0.210235	0.861645	37.116268
01265		-0.205917	0.858395	37.121793
01266		-0.203394	0.853542	37.128266
01267		-0.199263	0.849604	37.132040
01268		-0.196804	0.844960	37.138508
01269		-0.190974	0.839428	37.143125
01270		-0.189546	0.834949	37.146973
01271		-0.187117	0.831418	37.153408
01272		-0.183857	0.828812	37.158911
01273		-0.178895	0.825381	37.164372
01274		-0.174875	0.821196	37.169011
01275		-0.172566	0.817157	37.175359
01276		-0.169399	0.814069	37.180873
01277		-0.166291	0.810189	37.186457
01278		-0.161466	0.806362	37.191814
01279		-0.157563	0.802536	37.197415
01280		-0.154502	0.798940	37.202941
01281		-0.152390	0.795346	37.209067
01282		-0.148605	0.791854	37.213035
01283		-0.144757	0.787603	37.219495
01284		-0.140863	0.784440	37.225276
01285		-0.137047	0.783776	37.230332
01286		-0.131550	0.781370	37.236593
01287		-0.129603	0.780078	37.240957
01288		-0.127728	0.775421	37.246230
01289		-0.126038	0.773040	37.251235
01290		-0.122302	0.768765	37.256178
01291		-0.118735	0.766784	37.261961
01292		-0.116002	0.765177	37.265465
01293		-0.112637	0.763174	37.270485
